File: SPmidcap400/information_technology/VSM_mod.csv
,Date,High,Low,Open,Close,Volume,Adj Close,Ticker,Security,Sector,1_Day_Close_Change,1_Week_Close_Change,1_Month_Close_Change,1_Day_Volume_Change,1_Week_Volume_Change,1_Month_Volume_Change,Day_Class,Month_Class,Week_Class
0,2016-09-19,27.5,24.96,27.5,24.96,102300.0,24.74,VSM,Versum Materials Inc,information_technology,0.0,0.0,0.0,0.0,0.0,0.0,1,1,1
1,2016-09-20,25.05,24.26,25.0,24.26,283900.0,24.0462,VSM,Versum Materials Inc,information_technology,-0.0280448,0.0,0.0,1.77517,0.0,0.0,0,1,1
2,2016-09-21,24.93,23.53,24.0,24.0,571100.0,23.7884,VSM,Versum Materials Inc,information_technology,-0.0107172,0.0,0.0,1.01162,0.0,0.0,0,1,1
3,2016-09-22,24.0,22.32,24.0,23.2,572300.0,22.9955,VSM,Versum Materials Inc,information_technology,-0.0333333,0.0,0.0,0.00210121,0.0,0.0,0,1,1
4,2016-09-23,23.15,22.55,22.8,23.0,544000.0,22.7973,VSM,Versum Materials Inc,information_technology,-0.00862072,0.0,0.0,-0.0494496,0.0,0.0,0,1,1
5,2016-09-24,23.0,21.91,22.56,22.35,497800.0,22.153,VSM,Versum Materials Inc,information_technology,-0.0282609,0.0,0.0,-0.0849265,0.0,0.0,0,1,1
6,2016-09-25,23.0,21.91,22.56,22.35,497800.0,22.153,VSM,Versum Materials Inc,information_technology,0.0,0.0,0.0,0.0,0.0,0.0,1,1,1
7,2016-09-26,23.0,21.91,22.56,22.35,497800.0,22.153,VSM,Versum Materials Inc,information_technology,0.0,-0.104567,0.0,0.0,3.86608,0.0,1,1,0
8,2016-09-27,22.53,22.25,22.4,22.35,368700.0,22.153,VSM,Versum Materials Inc,information_technology,0.0,-0.0787304,0.0,-0.259341,0.298697,0.0,1,1,0
9,2016-09-28,22.75,22.25,22.35,22.47,1401900.0,22.2719,VSM,Versum Materials Inc,information_technology,0.00536908,-0.06375,0.0,2.80228,1.45474,0.0,1,1,0
10,2016-09-29,23.25,22.42,22.42,23.0,1576600.0,22.7973,VSM,Versum Materials Inc,information_technology,0.023587,-0.00862072,0.0,0.124617,1.75485,0.0,1,1,0
11,2016-09-30,23.25,22.66,23.25,22.7,1758200.0,22.4999,VSM,Versum Materials Inc,information_technology,-0.0130434,-0.0130434,0.0,0.115185,2.23199,0.0,0,1,0
12,2016-10-01,28.0,21.86,22.45,28.0,30016900.0,27.7532,VSM,Versum Materials Inc,information_technology,0.23348,0.252796,0.0,16.0725,59.2991,0.0,1,1,1
13,2016-10-02,28.0,21.86,22.45,28.0,30016900.0,27.7532,VSM,Versum Materials Inc,information_technology,0.0,0.252796,0.0,0.0,59.2991,0.0,1,1,1
14,2016-10-03,28.0,21.86,22.45,28.0,30016900.0,27.7532,VSM,Versum Materials Inc,information_technology,0.0,0.252796,0.0,0.0,59.2991,0.0,1,1,1
15,2016-10-04,25.77,24.35,25.7,24.49,8727100.0,24.2741,VSM,Versum Materials Inc,information_technology,-0.125357,0.0957494,0.0,-0.70926,22.6699,0.0,0,1,1
16,2016-10-05,24.925,23.47,23.8,23.68,3157600.0,23.4713,VSM,Versum Materials Inc,information_technology,-0.0330747,0.0538496,0.0,-0.638185,1.25237,0.0,0,1,1
17,2016-10-06,24.023,23.32,23.51,23.44,3389200.0,23.2334,VSM,Versum Materials Inc,information_technology,-0.0101351,0.0191305,0.0,0.0733468,1.14969,0.0,0,1,1
18,2016-10-07,23.48,22.92,23.13,23.38,3502500.0,23.1739,VSM,Versum Materials Inc,information_technology,-0.00255979,0.0299559,0.0,0.0334297,0.992094,0.0,0,1,1
19,2016-10-08,24.03,23.15,23.15,23.49,2488700.0,23.2829,VSM,Versum Materials Inc,information_technology,0.0047049,-0.161071,0.0,-0.28945,-0.91709,0.0,1,1,0
20,2016-10-09,24.03,23.15,23.15,23.49,2488700.0,23.2829,VSM,Versum Materials Inc,information_technology,0.0,-0.161071,0.0,0.0,-0.91709,0.0,1,1,0
21,2016-10-10,24.03,23.15,23.15,23.49,2488700.0,23.2829,VSM,Versum Materials Inc,information_technology,0.0,-0.161071,0.0,0.0,-0.91709,0.0,1,1,0
22,2016-10-11,23.66,22.72,23.0,23.3,5099600.0,23.0946,VSM,Versum Materials Inc,information_technology,-0.00808857,-0.0485913,0.0,1.0491,-0.415659,0.0,0,1,0
23,2016-10-12,23.43,22.2,22.59,23.34,4020000.0,23.1343,VSM,Versum Materials Inc,information_technology,0.00171678,-0.0143581,0.0,-0.211703,0.273119,0.0,1,1,0
24,2016-10-13,23.39,22.28,23.34,22.83,3564600.0,22.6288,VSM,Versum Materials Inc,information_technology,-0.0218509,-0.0260239,0.0,-0.113284,0.0517526,0.0,0,1,0
25,2016-10-14,22.84,22.4,22.57,22.46,2541000.0,22.262,VSM,Versum Materials Inc,information_technology,-0.0162068,-0.0393499,0.0,-0.287157,-0.274518,0.0,0,1,0
26,2016-10-15,22.59,22.25,22.42,22.47,999000.0,22.2719,VSM,Versum Materials Inc,information_technology,0.000445246,-0.0434228,0.0,-0.606848,-0.598586,0.0,1,1,0
27,2016-10-16,22.59,22.25,22.42,22.47,999000.0,22.2719,VSM,Versum Materials Inc,information_technology,0.0,-0.0434228,0.0,0.0,-0.598586,0.0,1,1,0
28,2016-10-17,22.59,22.25,22.42,22.47,999000.0,22.2719,VSM,Versum Materials Inc,information_technology,0.0,-0.0434228,0.0,0.0,-0.598586,0.0,1,1,0
29,2016-10-18,24.58,22.884,23.03,24.3,2714800.0,24.0858,VSM,Versum Materials Inc,information_technology,0.0814419,0.0429185,0.0,1.71752,-0.467645,0.0,1,1,1
30,2016-10-19,24.2,23.3,24.12,23.76,1535400.0,23.5506,VSM,Versum Materials Inc,information_technology,-0.0222222,0.0179949,-0.0480769,-0.434433,-0.61806,14.0088,0,0,1
31,2016-10-20,24.01,23.45,23.59,23.92,744200.0,23.7091,VSM,Versum Materials Inc,information_technology,0.006734,0.0477442,-0.0140148,-0.515305,-0.791225,1.62135,1,0,1
32,2016-10-21,24.02,23.18,23.75,23.33,1405700.0,23.1243,VSM,Versum Materials Inc,information_technology,-0.0246656,0.0387356,-0.0279167,0.888874,-0.446793,1.46139,0,0,1
33,2016-10-22,23.6,22.97,23.6,23.3,1082000.0,23.0946,VSM,Versum Materials Inc,information_technology,-0.00128593,0.0369381,0.00431028,-0.230277,0.0830831,0.890617,0,1,1
34,2016-10-23,23.6,22.97,23.6,23.3,1082000.0,23.0946,VSM,Versum Materials Inc,information_technology,0.0,0.0369381,0.0130434,0.0,0.0830831,0.988971,1,1,1
35,2016-10-24,23.6,22.97,23.6,23.3,1082000.0,23.0946,VSM,Versum Materials Inc,information_technology,0.0,0.0369381,0.0425055,0.0,0.0830831,1.17356,1,1,1
36,2016-10-25,23.2,22.75,23.19,23.04,2198800.0,22.8369,VSM,Versum Materials Inc,information_technology,-0.0111587,-0.0518518,0.0308725,1.03216,-0.190069,3.41703,0,1,0
37,2016-10-26,22.86,22.25,22.78,22.81,4476200.0,22.6089,VSM,Versum Materials Inc,information_technology,-0.0099827,-0.0399832,0.0205816,1.03575,1.91533,7.99196,0,1,0
38,2016-10-27,23.89,22.75,22.96,23.29,2281100.0,23.0847,VSM,Versum Materials Inc,information_technology,0.0210435,-0.0263378,0.0420582,-0.490394,2.06517,5.18687,1,1,0
39,2016-10-28,23.35,22.5,23.22,22.75,7341100.0,22.5495,VSM,Versum Materials Inc,information_technology,-0.023186,-0.0248607,0.0124611,2.21823,4.22238,4.23654,0,1,0
40,2016-10-29,22.98,22.52,22.57,22.7,1305500.0,22.4999,VSM,Versum Materials Inc,information_technology,-0.00219777,-0.025751,-0.0130434,-0.822166,0.206562,-0.171952,0,0,0
41,2016-10-30,22.98,22.52,22.57,22.7,1305500.0,22.4999,VSM,Versum Materials Inc,information_technology,0.0,-0.025751,0.0,0.0,0.206562,-0.257479,1,1,0
42,2016-10-31,22.98,22.52,22.57,22.7,1305500.0,22.4999,VSM,Versum Materials Inc,information_technology,0.0,-0.025751,-0.189286,0.0,0.206562,-0.956508,1,0,0
43,2016-11-01,22.78,22.175,22.78,22.53,4584300.0,22.3314,VSM,Versum Materials Inc,information_technology,-0.00748899,-0.0221354,-0.195357,2.51153,1.08491,-0.847276,0,0,0
44,2016-11-02,22.98,22.483,22.5,22.67,1215500.0,22.4702,VSM,Versum Materials Inc,information_technology,0.00621391,-0.00613763,-0.190357,-0.734856,-0.728453,-0.959506,1,0,0
45,2016-11-03,22.92,22.41,22.67,22.62,1023400.0,22.4206,VSM,Versum Materials Inc,information_technology,-0.00220552,-0.0287677,-0.0763577,-0.158042,-0.551357,-0.882733,0,0,0
46,2016-11-04,22.91,22.24,22.44,22.69,1346900.0,22.49,VSM,Versum Materials Inc,information_technology,0.00309459,-0.00263734,-0.0418074,0.316103,-0.816526,-0.573442,1,0,0
47,2016-11-05,23.5,22.7,22.88,23.11,1736200.0,22.9063,VSM,Versum Materials Inc,information_technology,0.0185104,0.0180617,-0.0140785,0.289034,0.329912,-0.487726,1,0,1
48,2016-11-06,23.5,22.7,22.88,23.11,1736200.0,22.9063,VSM,Versum Materials Inc,information_technology,0.0,0.0180617,-0.0115483,0.0,0.329912,-0.504297,1,0,1
49,2016-11-07,23.5,22.7,22.88,23.11,1736200.0,22.9063,VSM,Versum Materials Inc,information_technology,0.0,0.0180617,-0.0161771,0.0,0.329912,-0.302367,1,0,1
50,2016-11-08,23.24,22.71,23.05,23.13,1358500.0,22.9261,VSM,Versum Materials Inc,information_technology,0.000865363,0.0266311,-0.0153257,-0.217544,-0.703663,-0.454133,1,0,1
51,2016-11-09,23.14,22.72,22.93,23.0,2165600.0,22.7973,VSM,Versum Materials Inc,information_technology,-0.00562037,0.0145567,-0.0208599,0.594111,0.781654,-0.129827,0,0,1
52,2016-11-10,23.77,22.81,23.0,23.55,2343600.0,23.3424,VSM,Versum Materials Inc,information_technology,0.023913,0.041114,0.0107296,0.0821943,1.29001,-0.540435,1,1,1
53,2016-11-11,24.27,23.06,23.47,24.18,1076400.0,23.9669,VSM,Versum Materials Inc,information_technology,0.0267516,0.0656677,0.0359897,-0.540707,-0.200832,-0.732239,1,1,1
54,2016-11-12,24.283,23.54,24.17,23.69,1166400.0,23.4812,VSM,Versum Materials Inc,information_technology,-0.0202647,0.0250974,0.0376698,0.083612,-0.328188,-0.672782,0,1,1
55,2016-11-13,24.283,23.54,24.17,23.69,1166400.0,23.4812,VSM,Versum Materials Inc,information_technology,0.0,0.0250974,0.0547641,0.0,-0.328188,-0.540968,1,1,1
56,2016-11-14,24.283,23.54,24.17,23.69,1166400.0,23.4812,VSM,Versum Materials Inc,information_technology,0.0,0.0250974,0.0542947,0.0,-0.328188,0.167568,1,1,1
57,2016-11-15,24.01,23.5,23.68,23.89,1175000.0,23.6794,VSM,Versum Materials Inc,information_technology,0.00844233,0.0328578,0.0631954,0.00737311,-0.135075,0.176176,1,1,1
58,2016-11-16,24.02,23.62,23.72,23.99,666800.0,23.7785,VSM,Versum Materials Inc,information_technology,0.00418587,0.0430435,0.0676458,-0.432511,-0.692095,-0.332533,1,1,1
59,2016-11-17,24.4,23.8,24.09,23.99,992000.0,23.7785,VSM,Versum Materials Inc,information_technology,0.0,0.0186837,-0.0127572,0.487702,-0.57672,-0.634596,1,0,1
60,2016-11-18,24.07,23.38,23.85,23.44,817000.0,23.2334,VSM,Versum Materials Inc,information_technology,-0.0229262,-0.0306038,-0.013468,-0.176411,-0.240988,-0.467891,0,0,0
61,2016-11-19,24.66,23.44,23.44,24.59,1334900.0,24.3732,VSM,Versum Materials Inc,information_technology,0.0490614,0.0379907,0.02801,0.633905,0.144462,0.793738,1,1,1
62,2016-11-20,24.66,23.44,23.44,24.59,1334900.0,24.3732,VSM,Versum Materials Inc,information_technology,0.0,0.0379907,0.0540077,0.0,0.144462,-0.0503664,1,1,1
63,2016-11-21,24.66,23.44,23.44,24.59,1334900.0,24.3732,VSM,Versum Materials Inc,information_technology,0.0,0.0379907,0.0553648,0.0,0.144462,0.233734,1,1,1
64,2016-11-22,25.16,24.58,24.68,25.03,798000.0,24.8094,VSM,Versum Materials Inc,information_technology,0.0178935,0.0477188,0.074249,-0.402202,-0.320851,-0.262477,1,1,1
65,2016-11-23,25.582,24.88,25.08,25.44,970100.0,25.2157,VSM,Versum Materials Inc,information_technology,0.0163803,0.0604419,0.0918456,0.215664,0.454859,-0.10342,1,1,1
66,2016-11-24,25.64,25.1,25.61,25.1,346400.0,24.8787,VSM,Versum Materials Inc,information_technology,-0.0133648,0.0462693,0.0894097,-0.642923,-0.650806,-0.84246,0,1,1
67,2016-11-25,25.64,25.1,25.61,25.1,346400.0,24.8787,VSM,Versum Materials Inc,information_technology,0.0,0.0708191,0.100395,0.0,-0.57601,-0.922613,1,1,1
68,2016-11-26,25.41,24.607,25.03,24.73,1053900.0,24.512,VSM,Versum Materials Inc,information_technology,-0.0147411,0.00569335,0.061829,2.04244,-0.210503,-0.537986,0,1,1
69,2016-11-27,25.41,24.607,25.03,24.73,1053900.0,24.512,VSM,Versum Materials Inc,information_technology,0.0,0.00569335,0.0870329,0.0,-0.210503,-0.856438,1,1,1
70,2016-11-28,25.41,24.607,25.03,24.73,1053900.0,24.512,VSM,Versum Materials Inc,information_technology,0.0,0.00569335,0.0894273,0.0,-0.210503,-0.192723,1,1,1
71,2016-11-29,24.8,24.37,24.58,24.65,721100.0,24.4327,VSM,Versum Materials Inc,information_technology,-0.00323493,-0.0151818,0.085903,-0.315779,-0.0963659,-0.447645,0,1,0
72,2016-11-30,24.79,24.41,24.64,24.46,1232900.0,24.2444,VSM,Versum Materials Inc,information_technology,-0.00770793,-0.0385221,0.077533,0.709749,0.2709,-0.0556109,0,1,0
73,2016-12-01,25.93,24.52,25.1,24.62,2579700.0,24.403,VSM,Versum Materials Inc,information_technology,0.00654136,-0.0191235,0.0927652,1.09238,6.44717,-0.437275,1,1,0
74,2016-12-02,24.86,24.4,24.61,24.46,994300.0,24.2444,VSM,Versum Materials Inc,information_technology,-0.00649885,-0.0254981,0.0789589,-0.614568,1.87038,-0.181983,0,1,0
75,2016-12-03,25.01,24.27,24.68,24.85,1870200.0,24.631,VSM,Versum Materials Inc,information_technology,0.0159445,0.00485244,0.0985853,0.880921,0.774552,0.827438,1,1,1
76,2016-12-04,25.01,24.27,24.68,24.85,1870200.0,24.631,VSM,Versum Materials Inc,information_technology,0.0,0.00485244,0.0951961,0.0,0.774552,0.388522,1,1,1
77,2016-12-05,25.01,24.27,24.68,24.85,1870200.0,24.631,VSM,Versum Materials Inc,information_technology,0.0,0.00485244,0.0752921,0.0,0.774552,0.07718,1,1,1
78,2016-12-06,25.25,24.75,24.8,25.2,1784800.0,24.9779,VSM,Versum Materials Inc,information_technology,0.0140845,0.0223124,0.090437,-0.0456636,1.47511,0.0279922,1,1,1
79,2016-12-07,26.99,25.35,25.35,26.93,2402400.0,26.6926,VSM,Versum Materials Inc,information_technology,0.0686508,0.100981,0.165296,0.346033,0.948577,0.383712,1,1,1
80,2016-12-08,27.48,26.75,26.9,27.17,1047500.0,26.9305,VSM,Versum Materials Inc,information_technology,0.00891199,0.103574,0.174665,-0.563978,-0.593945,-0.228929,1,1,1
81,2016-12-09,27.31,26.75,27.15,27.06,887600.0,26.8215,VSM,Versum Materials Inc,information_technology,-0.00404861,0.106296,0.176522,-0.152649,-0.107312,-0.590137,0,1,1
82,2016-12-10,27.39,26.88,26.89,27.32,722000.0,27.0792,VSM,Versum Materials Inc,information_technology,0.00960829,0.0993963,0.160085,-0.186571,-0.613945,-0.691927,1,1,1
83,2016-12-11,27.39,26.88,26.89,27.32,722000.0,27.0792,VSM,Versum Materials Inc,information_technology,0.0,0.0993963,0.129859,0.0,-0.613945,-0.329246,1,1,1
84,2016-12-12,27.39,26.88,26.89,27.32,722000.0,27.0792,VSM,Versum Materials Inc,information_technology,0.0,0.0993963,0.153229,0.0,-0.613945,-0.381001,1,1,1
85,2016-12-13,28.0,27.352,27.49,27.8,1076100.0,27.5549,VSM,Versum Materials Inc,information_technology,0.0175695,0.103175,0.173491,0.490443,-0.397075,-0.0774177,1,1,1
86,2016-12-14,28.42,27.44,27.91,28.02,914200.0,27.773,VSM,Versum Materials Inc,information_technology,0.00791371,0.0404753,0.182778,-0.150451,-0.619464,-0.216221,1,1,1
87,2016-12-15,28.79,27.78,27.95,28.42,853000.0,28.1695,VSM,Versum Materials Inc,information_technology,0.0142755,0.0460066,0.189619,-0.0669438,-0.18568,-0.274043,1,1,1
88,2016-12-16,28.95,27.67,28.58,27.8,1409400.0,27.5549,VSM,Versum Materials Inc,information_technology,-0.0218157,0.0273466,0.158816,0.652286,0.587877,1.11368,0,1,1
89,2016-12-17,28.69,27.76,27.89,28.67,1013100.0,28.4173,VSM,Versum Materials Inc,information_technology,0.031295,0.0494144,0.195081,-0.281183,0.403186,0.0212702,1,1,1
90,2016-12-18,28.69,27.76,27.89,28.67,1013100.0,28.4173,VSM,Versum Materials Inc,information_technology,0.0,0.0494144,0.223123,0.0,0.403186,0.240024,1,1,1
91,2016-12-19,28.69,27.76,27.89,28.67,1013100.0,28.4173,VSM,Versum Materials Inc,information_technology,0.0,0.0494144,0.165921,0.0,0.403186,-0.241067,1,1,1
92,2016-12-20,29.14,28.39,28.46,28.72,762300.0,28.4668,VSM,Versum Materials Inc,information_technology,0.00174396,0.0330935,0.167954,-0.247557,-0.291609,-0.428946,1,1,1
93,2016-12-21,28.74,28.11,28.61,28.25,562200.0,28.001,VSM,Versum Materials Inc,information_technology,-0.0163649,0.00820841,0.148841,-0.262495,-0.385036,-0.578845,0,1,1
94,2016-12-22,28.31,27.82,28.23,28.03,331900.0,27.7829,VSM,Versum Materials Inc,information_technology,-0.00778759,-0.0137227,0.119856,-0.409641,-0.610903,-0.584085,0,1,0
95,2016-12-23,28.35,27.81,28.12,28.2,285800.0,27.9514,VSM,Versum Materials Inc,information_technology,0.00606493,0.0143885,0.108491,-0.138897,-0.797219,-0.705391,1,1,1
96,2016-12-24,28.71,27.98,28.12,28.17,198400.0,27.9217,VSM,Versum Materials Inc,information_technology,-0.00106385,-0.0174398,0.122311,-0.305808,-0.804165,-0.427252,0,1,0
97,2016-12-25,28.71,27.98,28.12,28.17,198400.0,27.9217,VSM,Versum Materials Inc,information_technology,0.0,-0.0174398,0.122311,0.0,-0.804165,-0.427252,1,1,0
98,2016-12-26,28.71,27.98,28.12,28.17,198400.0,27.9217,VSM,Versum Materials Inc,information_technology,0.0,-0.0174398,0.139102,0.0,-0.804165,-0.811747,1,1,0
99,2016-12-27,28.71,27.98,28.12,28.17,198400.0,27.9217,VSM,Versum Materials Inc,information_technology,0.0,-0.0191504,0.139102,0.0,-0.739735,-0.811747,1,1,0
100,2016-12-28,28.32,27.85,28.15,28.08,492800.0,27.8325,VSM,Versum Materials Inc,information_technology,-0.00319489,-0.0060177,0.135463,1.48387,-0.123444,-0.532403,0,1,0
101,2016-12-29,28.16,27.56,28.0,27.92,238800.0,27.6739,VSM,Versum Materials Inc,information_technology,-0.005698,-0.00392439,0.132657,-0.515422,-0.280506,-0.668839,0,1,0
102,2016-12-30,28.09,27.71,27.97,28.07,309000.0,27.8226,VSM,Versum Materials Inc,information_technology,0.00537248,-0.00460997,0.147588,0.29397,0.0811756,-0.749371,1,1,0
103,2016-12-31,28.313,27.24,28.11,27.69,905100.0,27.4459,VSM,Versum Materials Inc,information_technology,-0.0135376,-0.0170394,0.124695,1.92913,3.562,-0.649145,0,1,0
104,2017-01-01,28.313,27.24,28.11,27.69,905100.0,27.4459,VSM,Versum Materials Inc,information_technology,0.0,-0.0170394,0.132052,0.0,3.562,-0.0897114,1,1,0
105,2017-01-02,28.313,27.24,28.11,27.69,905100.0,27.4459,VSM,Versum Materials Inc,information_technology,0.0,-0.0170394,0.114286,0.0,3.562,-0.516041,1,1,0
106,2017-01-03,28.313,27.24,28.11,27.69,905100.0,27.4459,VSM,Versum Materials Inc,information_technology,0.0,-0.0170394,0.114286,0.0,3.562,-0.516041,1,1,0
107,2017-01-04,28.24,27.51,27.6,28.09,1170000.0,27.8424,VSM,Versum Materials Inc,information_technology,0.0144456,0.000356134,0.130382,0.292675,1.37419,-0.374398,1,1,1
108,2017-01-05,28.34,27.76,27.89,28.06,643700.0,27.8127,VSM,Versum Materials Inc,information_technology,-0.00106802,0.0050143,0.113492,-0.449829,1.69556,-0.639343,0,1,1
109,2017-01-06,28.49,27.8,28.04,28.44,672400.0,28.1893,VSM,Versum Materials Inc,information_technology,0.0135424,0.0131814,0.0560713,0.044586,1.17605,-0.720113,1,1,1
110,2017-01-07,28.3,27.75,28.24,27.95,461600.0,27.7036,VSM,Versum Materials Inc,information_technology,-0.0172292,0.00938968,0.0287082,-0.313504,-0.490001,-0.559332,0,1,1
111,2017-01-08,28.3,27.75,28.24,27.95,461600.0,27.7036,VSM,Versum Materials Inc,information_technology,0.0,0.00938968,0.0328899,0.0,-0.490001,-0.479946,1,1,1
112,2017-01-09,28.3,27.75,28.24,27.95,461600.0,27.7036,VSM,Versum Materials Inc,information_technology,0.0,0.00938968,0.0230601,0.0,-0.490001,-0.360665,1,1,1
113,2017-01-10,28.8,27.92,27.98,28.73,753400.0,28.4767,VSM,Versum Materials Inc,information_technology,0.0279069,0.0375586,0.0516105,0.632149,-0.167606,0.0434903,1,1,1
114,2017-01-11,29.09,28.38,28.58,28.79,515400.0,28.5362,VSM,Versum Materials Inc,information_technology,0.00208846,0.0249199,0.0538068,-0.315901,-0.559487,-0.28615,1,1,1
115,2017-01-12,28.76,27.18,28.75,27.43,765200.0,27.1882,VSM,Versum Materials Inc,information_technology,-0.0472386,-0.0224519,-0.0133093,0.484672,0.188753,-0.288914,0,0,0
116,2017-01-13,28.04,27.1,27.63,27.32,525600.0,27.0792,VSM,Versum Materials Inc,information_technology,-0.00401023,-0.0393812,-0.0249822,-0.313121,-0.218322,-0.425071,0,0,0
117,2017-01-14,27.385,26.82,27.2,27.06,595900.0,26.8215,VSM,Versum Materials Inc,information_technology,-0.00951685,-0.0318426,-0.0478536,0.133752,0.290945,-0.301407,0,0,0
118,2017-01-15,27.385,26.82,27.2,27.06,595900.0,26.8215,VSM,Versum Materials Inc,information_technology,0.0,-0.0318426,-0.0266187,0.0,0.290945,-0.577196,1,0,0
119,2017-01-16,27.385,26.82,27.2,27.06,595900.0,26.8215,VSM,Versum Materials Inc,information_technology,0.0,-0.0318426,-0.0561563,0.0,0.290945,-0.411805,1,0,0
120,2017-01-17,27.385,26.82,27.2,27.06,595900.0,26.8215,VSM,Versum Materials Inc,information_technology,0.0,-0.0581274,-0.0561563,0.0,-0.209052,-0.411805,1,0,0
121,2017-01-18,28.05,27.2,27.2,27.44,361800.0,27.1981,VSM,Versum Materials Inc,information_technology,0.0140429,-0.0468913,-0.042902,-0.392851,-0.298021,-0.642878,1,0,0
122,2017-01-19,27.67,26.715,27.49,26.78,397800.0,26.5439,VSM,Versum Materials Inc,information_technology,-0.0240525,-0.0236967,-0.0675487,0.0995025,-0.480136,-0.478158,0,0,0
123,2017-01-20,27.83,26.74,26.77,27.83,407200.0,27.5847,VSM,Versum Materials Inc,information_technology,0.0392083,0.0186677,-0.0148673,0.02363,-0.225266,-0.275703,1,0,1
124,2017-01-21,27.89,27.47,27.84,27.5,248400.0,27.2576,VSM,Versum Materials Inc,information_technology,-0.0118577,0.0162602,-0.0189083,-0.38998,-0.583152,-0.251582,0,0,1
125,2017-01-22,27.89,27.47,27.84,27.5,248400.0,27.2576,VSM,Versum Materials Inc,information_technology,0.0,0.0162602,-0.0248227,0.0,-0.583152,-0.130861,1,0,1
126,2017-01-23,27.89,27.47,27.84,27.5,248400.0,27.2576,VSM,Versum Materials Inc,information_technology,0.0,0.0162602,-0.0237842,0.0,-0.583152,0.252016,1,0,1
127,2017-01-24,28.2,27.27,27.67,28.05,342700.0,27.8027,VSM,Versum Materials Inc,information_technology,0.02,0.0365854,-0.00425988,0.37963,-0.424904,0.727319,1,0,1
128,2017-01-25,28.289,27.81,28.16,27.88,214400.0,27.6342,VSM,Versum Materials Inc,information_technology,-0.00606061,0.0160349,-0.0102947,-0.37438,-0.407407,0.0806452,0,0,1
129,2017-01-26,28.27,27.74,28.02,27.98,252200.0,27.7334,VSM,Versum Materials Inc,information_technology,0.00358681,0.0448095,-0.00674478,0.176306,-0.366013,0.271169,1,0,1
130,2017-01-27,28.45,27.83,27.94,28.43,381600.0,28.1794,VSM,Versum Materials Inc,information_technology,0.0160829,0.0215595,0.0124644,0.513085,-0.0628684,-0.225649,1,1,1
131,2017-01-28,28.26,27.63,28.16,27.92,491900.0,27.6739,VSM,Versum Materials Inc,information_technology,-0.0179388,0.0152727,0.0,0.289046,0.980274,1.05988,0,1,1
132,2017-01-29,28.26,27.63,28.16,27.92,491900.0,27.6739,VSM,Versum Materials Inc,information_technology,0.0,0.0152727,-0.00534377,0.0,0.980274,0.591909,1,0,1
133,2017-01-30,28.26,27.63,28.16,27.92,491900.0,27.6739,VSM,Versum Materials Inc,information_technology,0.0,0.0152727,0.00830623,0.0,0.980274,-0.456524,1,1,1
134,2017-01-31,28.06,27.48,27.8,27.95,419600.0,27.7036,VSM,Versum Materials Inc,information_technology,0.00107452,-0.00356501,0.00938968,-0.146981,0.224395,-0.536405,1,1,0
135,2017-02-01,28.23,27.87,28.06,27.9,348600.0,27.6541,VSM,Versum Materials Inc,information_technology,-0.00178895,0.000717377,0.00758393,-0.169209,0.625933,-0.614849,0,1,1
136,2017-02-02,29.0,27.89,27.89,28.79,1268300.0,28.5362,VSM,Versum Materials Inc,information_technology,0.0318997,0.0289493,0.0397255,2.63827,4.02895,0.401282,1,1,1
137,2017-02-03,29.06,28.47,29.01,29.01,721800.0,28.7543,VSM,Versum Materials Inc,information_technology,0.00764152,0.020401,0.0327519,-0.430892,0.891509,-0.383077,1,1,1
138,2017-02-04,29.67,28.92,29.01,29.19,564000.0,28.9327,VSM,Versum Materials Inc,information_technology,0.00620477,0.0454871,0.0402709,-0.21862,0.146575,-0.123815,1,1,1
139,2017-02-05,29.67,28.92,29.01,29.19,564000.0,28.9327,VSM,Versum Materials Inc,information_technology,0.0,0.0454871,0.0263713,0.0,0.146575,-0.161214,1,1,1
140,2017-02-06,29.67,28.92,29.01,29.19,564000.0,28.9327,VSM,Versum Materials Inc,information_technology,0.0,0.0454871,0.0443649,0.0,0.146575,0.221837,1,1,1
141,2017-02-07,29.44,28.75,29.16,28.94,776400.0,28.6849,VSM,Versum Materials Inc,information_technology,-0.00856458,0.0354204,0.0354204,0.376596,0.850334,0.681976,0,1,1
142,2017-02-08,29.25,28.62,29.0,28.69,512500.0,28.4371,VSM,Versum Materials Inc,information_technology,-0.00863856,0.0283154,0.0264758,-0.339902,0.470166,0.110269,0,1,1
143,2017-02-09,29.29,28.34,28.69,28.39,853900.0,28.1397,VSM,Versum Materials Inc,information_technology,-0.0104566,-0.0138938,-0.0118343,0.666146,-0.326737,0.133395,0,0,0
144,2017-02-10,28.76,28.32,28.38,28.63,566600.0,28.3776,VSM,Versum Materials Inc,information_technology,0.00845367,-0.013099,-0.00555755,-0.336456,-0.215018,0.0993403,1,0,0
145,2017-02-11,29.845,28.37,29.6,29.08,2240500.0,28.8237,VSM,Versum Materials Inc,information_technology,0.0157178,-0.00376843,0.0601531,2.95429,2.97252,1.92799,1,1,0
146,2017-02-12,29.845,28.37,29.6,29.08,2240500.0,28.8237,VSM,Versum Materials Inc,information_technology,0.0,-0.00376843,0.0644217,0.0,2.97252,3.26275,1,1,0
147,2017-02-13,29.845,28.37,29.6,29.08,2240500.0,28.8237,VSM,Versum Materials Inc,information_technology,0.0,-0.00376843,0.0746489,0.0,2.97252,2.75986,1,1,0
148,2017-02-14,29.59,28.88,29.14,29.54,1188900.0,29.2796,VSM,Versum Materials Inc,information_technology,0.0158185,0.0207326,0.0916482,-0.46936,0.531298,0.995133,1,1,1
149,2017-02-15,29.6,28.89,29.5,29.27,744800.0,29.012,VSM,Versum Materials Inc,information_technology,-0.00914016,0.0202161,0.0816704,-0.373539,0.453268,0.249874,0,1,1
150,2017-02-16,29.98,29.085,29.21,29.94,379000.0,29.6761,VSM,Versum Materials Inc,information_technology,0.0228903,0.0545967,0.10643,-0.491139,-0.556154,-0.363987,1,1,1
151,2017-02-17,31.09,29.86,29.89,31.08,599400.0,30.806,VSM,Versum Materials Inc,information_technology,0.0380761,0.0855746,0.132653,0.58153,0.0578892,0.656716,1,1,1
152,2017-02-18,31.26,30.65,31.06,30.96,602300.0,30.6871,VSM,Versum Materials Inc,information_technology,-0.00386103,0.0646492,0.156087,0.00483817,-0.731176,0.514077,0,1,1
153,2017-02-19,31.26,30.65,31.06,30.96,602300.0,30.6871,VSM,Versum Materials Inc,information_technology,0.0,0.0646492,0.112469,0.0,-0.731176,0.479126,1,1,1
154,2017-02-20,31.26,30.65,31.06,30.96,602300.0,30.6871,VSM,Versum Materials Inc,information_technology,0.0,0.0646492,0.125818,0.0,-0.731176,1.42472,1,1,1
155,2017-02-21,31.26,30.65,31.06,30.96,602300.0,30.6871,VSM,Versum Materials Inc,information_technology,0.0,0.0480703,0.125818,0.0,-0.493397,1.42472,1,1,1
156,2017-02-22,31.13,30.23,31.0,30.35,319500.0,30.0825,VSM,Versum Materials Inc,information_technology,-0.0197028,0.0368978,0.103636,-0.469533,-0.571026,0.286232,0,1,1
157,2017-02-23,30.74,30.17,30.44,30.51,386500.0,30.2411,VSM,Versum Materials Inc,information_technology,0.00527182,0.0190381,0.0877006,0.209703,0.0197889,0.127809,1,1,1
158,2017-02-24,30.83,29.9,30.28,30.8,393600.0,30.5285,VSM,Versum Materials Inc,information_technology,0.00950505,-0.00900903,0.104735,0.01837,-0.343343,0.835821,1,1,0
159,2017-02-25,30.99,30.327,30.76,30.99,491500.0,30.7168,VSM,Versum Materials Inc,information_technology,0.00616885,0.000969014,0.107577,0.24873,-0.183961,0.94885,1,1,1
160,2017-02-26,30.99,30.327,30.76,30.99,491500.0,30.7168,VSM,Versum Materials Inc,information_technology,0.0,0.000969014,0.0900457,0.0,-0.183961,0.287998,1,1,1
161,2017-02-27,30.99,30.327,30.76,30.99,491500.0,30.7168,VSM,Versum Materials Inc,information_technology,0.0,0.000969014,0.109957,0.0,-0.183961,-0.000813173,1,1,1
162,2017-02-28,30.91,30.31,30.79,30.31,392900.0,30.0428,VSM,Versum Materials Inc,information_technology,-0.0219426,-0.0209948,0.0856017,-0.20061,-0.347667,-0.20126,0,1,0
163,2017-03-01,31.31,30.52,30.63,31.17,396200.0,30.8952,VSM,Versum Materials Inc,information_technology,0.0283735,0.0270181,0.116404,0.00839908,0.240063,-0.194552,1,1,1
164,2017-03-02,31.105,30.51,31.1,30.83,481900.0,30.5582,VSM,Versum Materials Inc,information_technology,-0.0109079,0.0104884,0.103041,0.216305,0.246831,0.148475,0,1,1
165,2017-03-03,30.98,30.36,30.7,30.62,352500.0,30.3501,VSM,Versum Materials Inc,information_technology,-0.00681152,-0.0058441,0.0974911,-0.26852,-0.104421,0.0111876,0,1,0
166,2017-03-04,30.55,29.79,30.37,30.15,457600.0,29.8842,VSM,Versum Materials Inc,information_technology,-0.0153495,-0.0271055,0.0472386,0.298156,-0.0689725,-0.639202,0,1,0
167,2017-03-05,30.55,29.79,30.37,30.15,457600.0,29.8842,VSM,Versum Materials Inc,information_technology,0.0,-0.0271055,0.0392968,0.0,-0.0689725,-0.366029,1,1,0
168,2017-03-06,30.55,29.79,30.37,30.15,457600.0,29.8842,VSM,Versum Materials Inc,information_technology,0.0,-0.0271055,0.0328879,0.0,-0.0689725,-0.188652,1,1,0
169,2017-03-07,30.32,29.72,30.15,29.77,424600.0,29.5076,VSM,Versum Materials Inc,information_technology,-0.0126036,-0.0178159,0.0198698,-0.0721154,0.0806821,-0.247163,0,1,0
170,2017-03-08,30.12,29.68,29.87,29.81,365600.0,29.5472,VSM,Versum Materials Inc,information_technology,0.0013436,-0.0436317,0.0212401,-0.138954,-0.0772337,-0.351773,1,1,0
171,2017-03-09,29.89,28.77,29.7,29.24,653400.0,28.9823,VSM,Versum Materials Inc,information_technology,-0.0191211,-0.0515731,0.0103662,0.787199,0.355883,-0.158423,0,1,0
172,2017-03-10,29.643,29.28,29.46,29.54,371600.0,29.2796,VSM,Versum Materials Inc,information_technology,0.01026,-0.0352711,0.0296271,-0.431283,0.0541844,-0.274927,1,1,0
173,2017-03-11,29.84,29.44,29.54,29.83,265800.0,29.5671,VSM,Versum Materials Inc,information_technology,0.00981716,-0.0106136,0.0507221,-0.284715,-0.419143,-0.688722,1,1,0
174,2017-03-12,29.84,29.44,29.54,29.83,265800.0,29.5671,VSM,Versum Materials Inc,information_technology,0.0,-0.0106136,0.0419141,0.0,-0.419143,-0.530886,1,1,0
175,2017-03-13,29.84,29.44,29.54,29.83,265800.0,29.5671,VSM,Versum Materials Inc,information_technology,0.0,-0.0106136,0.0257909,0.0,-0.419143,-0.881366,1,1,0
176,2017-03-14,29.91,29.46,29.62,29.51,341900.0,29.2499,VSM,Versum Materials Inc,information_technology,-0.0107274,-0.00873363,0.0147868,0.286305,-0.194772,-0.8474,0,1,0
177,2017-03-15,30.25,29.48,29.61,30.14,588700.0,29.8743,VSM,Versum Materials Inc,information_technology,0.0213487,0.0110701,0.0364512,0.721848,0.61023,-0.737246,1,1,1
178,2017-03-16,30.21,29.65,30.06,29.95,450300.0,29.686,VSM,Versum Materials Inc,information_technology,-0.00630387,0.0242818,0.0138795,-0.235094,-0.310836,-0.621247,0,1,1
179,2017-03-17,30.28,29.75,29.79,29.84,1722600.0,29.577,VSM,Versum Materials Inc,information_technology,-0.00367281,0.0101557,0.0194739,2.82545,3.63563,1.31284,0,1,1
180,2017-03-18,30.05,29.55,29.77,30.0,544600.0,29.7356,VSM,Versum Materials Inc,information_technology,0.00536193,0.00569896,0.00200399,-0.68385,1.04891,0.436939,1,1,1
181,2017-03-19,30.05,29.55,29.77,30.0,544600.0,29.7356,VSM,Versum Materials Inc,information_technology,0.0,0.00569896,-0.034749,0.0,1.04891,-0.0914248,1,0,1
182,2017-03-20,30.05,29.55,29.77,30.0,544600.0,29.7356,VSM,Versum Materials Inc,information_technology,0.0,0.00569896,-0.0310077,0.0,1.04891,-0.0957994,1,0,1
183,2017-03-21,30.234,29.58,30.15,29.69,537500.0,29.4283,VSM,Versum Materials Inc,information_technology,-0.0103333,0.00609964,-0.0410206,-0.0130371,0.572097,-0.107588,0,0,1
184,2017-03-22,29.85,29.41,29.66,29.84,485900.0,29.577,VSM,Versum Materials Inc,information_technology,0.00505219,-0.00995352,-0.0361757,-0.096,-0.174622,-0.193259,1,0,0
185,2017-03-23,30.23,29.51,29.79,29.94,342400.0,29.6761,VSM,Versum Materials Inc,information_technology,0.00335122,-0.000333897,-0.0329457,-0.295328,-0.239618,-0.431513,1,0,0
186,2017-03-24,30.55,29.74,30.1,29.87,703000.0,29.6067,VSM,Versum Materials Inc,information_technology,-0.002338,0.00100538,-0.0158155,1.05315,-0.591896,1.20031,0,0,1
187,2017-03-25,30.04,29.27,29.6,29.9,320500.0,29.6364,VSM,Versum Materials Inc,information_technology,0.00100431,-0.00333335,-0.0199935,-0.544097,-0.411495,-0.170763,1,0,0
188,2017-03-26,30.04,29.27,29.6,29.9,320500.0,29.6364,VSM,Versum Materials Inc,information_technology,0.0,-0.00333335,-0.0292208,0.0,-0.411495,-0.185722,1,0,0
189,2017-03-27,30.04,29.27,29.6,29.9,320500.0,29.6364,VSM,Versum Materials Inc,information_technology,0.0,-0.00333335,-0.0351726,0.0,-0.411495,-0.347915,1,0,0
190,2017-03-28,30.08,29.54,29.71,29.93,361500.0,29.6662,VSM,Versum Materials Inc,information_technology,0.00100337,0.00808352,-0.0342046,0.127925,-0.327442,-0.264496,1,0,1
191,2017-03-29,30.14,29.68,29.83,29.99,289600.0,29.7256,VSM,Versum Materials Inc,information_technology,0.00200466,0.0050268,-0.0322685,-0.198893,-0.403993,-0.410783,1,0,1
192,2017-03-30,30.54,29.94,29.94,30.48,261100.0,30.2113,VSM,Versum Materials Inc,information_technology,0.0163388,0.018036,0.00560871,-0.0984116,-0.237442,-0.335454,1,1,1
193,2017-03-31,30.75,30.28,30.41,30.6,346800.0,30.3303,VSM,Versum Materials Inc,information_technology,0.00393704,0.0244392,-0.0182868,0.328227,-0.506686,-0.124685,1,0,1
194,2017-04-01,30.86,29.82,30.6,30.24,478700.0,30.0225,VSM,Versum Materials Inc,information_technology,-0.0117647,0.0113712,-0.0191372,0.380334,0.493604,-0.00664038,0,0,1
195,2017-04-02,30.86,29.82,30.6,30.24,478700.0,30.0225,VSM,Versum Materials Inc,information_technology,0.0,0.0113712,-0.0124102,0.0,0.493604,0.358014,1,0,1
196,2017-04-03,30.86,29.82,30.6,30.24,478700.0,30.0225,VSM,Versum Materials Inc,information_technology,0.0,0.0113712,0.00298508,0.0,0.493604,0.0461101,1,1,1
197,2017-04-04,30.38,29.89,30.38,30.06,565800.0,29.8438,VSM,Versum Materials Inc,information_technology,-0.00595239,0.00434344,-0.00298508,0.181951,0.565145,0.236451,0,0,1
198,2017-04-05,30.67,29.97,30.15,30.04,325100.0,29.8239,VSM,Versum Materials Inc,information_technology,-0.000665288,0.00166726,-0.00364838,-0.425415,0.122583,-0.289554,0,0,1
199,2017-04-06,30.74,29.93,30.2,30.71,382900.0,30.4891,VSM,Versum Materials Inc,information_technology,0.0223035,0.00754592,0.0315754,0.177791,0.466488,-0.0982101,1,1,1
200,2017-04-07,30.78,30.41,30.57,30.57,289900.0,30.3501,VSM,Versum Materials Inc,information_technology,-0.00455876,-0.000980415,0.0254948,-0.242883,-0.164072,-0.207057,0,1,0
201,2017-04-08,30.868,30.34,30.62,30.4,219100.0,30.1813,VSM,Versum Materials Inc,information_technology,-0.00556101,0.005291,0.0396717,-0.244222,-0.542302,-0.664677,0,1,1
202,2017-04-09,30.868,30.34,30.62,30.4,219100.0,30.1813,VSM,Versum Materials Inc,information_technology,0.0,0.005291,0.029113,0.0,-0.542302,-0.410388,1,1,1
203,2017-04-10,30.868,30.34,30.62,30.4,219100.0,30.1813,VSM,Versum Materials Inc,information_technology,0.0,0.005291,0.0191083,0.0,-0.542302,-0.175696,1,1,1
204,2017-04-11,30.51,30.0,30.37,30.33,479600.0,30.1118,VSM,Versum Materials Inc,information_technology,-0.00230262,0.00898205,0.0167616,1.18895,-0.152351,0.804364,0,1,1
205,2017-04-12,30.28,29.65,30.09,29.81,536000.0,29.5956,VSM,Versum Materials Inc,information_technology,-0.0171448,-0.00765651,-0.000670481,0.117598,0.648723,1.01655,0,0,0
206,2017-04-13,29.96,28.88,29.8,28.91,639200.0,28.7021,VSM,Versum Materials Inc,information_technology,-0.0301912,-0.0586128,-0.0203321,0.192537,0.669365,0.869553,0,0,0
207,2017-04-14,29.59,28.7,28.95,29.54,734200.0,29.3275,VSM,Versum Materials Inc,information_technology,0.0217918,-0.0336931,-0.019907,0.148623,1.5326,0.247155,1,0,0
208,2017-04-15,29.59,28.7,28.95,29.54,734200.0,29.3275,VSM,Versum Materials Inc,information_technology,0.0,-0.0282894,-0.0136895,0.0,2.35098,0.630469,1,0,0
209,2017-04-16,29.59,28.7,28.95,29.54,734200.0,29.3275,VSM,Versum Materials Inc,information_technology,0.0,-0.0282894,-0.0100536,0.0,2.35098,-0.573784,1,0,0
210,2017-04-17,29.59,28.7,28.95,29.54,734200.0,29.3275,VSM,Versum Materials Inc,information_technology,0.0,-0.0282894,-0.0153333,0.0,2.35098,0.348145,1,0,0
211,2017-04-18,29.83,29.31,29.39,29.79,316300.0,29.5757,VSM,Versum Materials Inc,information_technology,0.0084631,-0.0178041,-0.00699997,-0.569191,-0.340492,-0.419207,1,0,0
212,2017-04-19,30.47,29.8,29.89,30.35,414300.0,30.1317,VSM,Versum Materials Inc,information_technology,0.0187982,0.0181148,0.0116667,0.309832,-0.227052,-0.239258,1,1,1
213,2017-04-20,31.3,30.38,30.55,31.09,562800.0,30.8664,VSM,Versum Materials Inc,information_technology,0.0243822,0.0754064,0.0471539,0.358436,-0.119524,0.0470698,1,1,1
214,2017-04-21,31.27,30.748,30.97,31.11,581800.0,30.8862,VSM,Versum Materials Inc,information_technology,0.000643308,0.0531483,0.0425603,0.0337598,-0.207573,0.197366,1,1,1
215,2017-04-22,31.74,31.34,31.74,31.45,450500.0,31.2238,VSM,Versum Materials Inc,information_technology,0.010929,0.0646581,0.0504342,-0.225679,-0.386407,0.315713,1,1,1
216,2017-04-23,31.74,31.34,31.74,31.45,450500.0,31.2238,VSM,Versum Materials Inc,information_technology,0.0,0.0646581,0.0528959,0.0,-0.386407,-0.359175,1,1,1
217,2017-04-24,31.74,31.34,31.74,31.45,450500.0,31.2238,VSM,Versum Materials Inc,information_technology,0.0,0.0646581,0.0518395,0.0,-0.386407,0.405616,1,1,1
218,2017-04-25,32.01,31.525,31.64,31.96,537700.0,31.7301,VSM,Versum Materials Inc,information_technology,0.0162162,0.0728432,0.0688963,0.193563,0.699968,0.677691,1,1,1
219,2017-04-26,32.62,31.8,31.8,32.5,534500.0,32.2662,VSM,Versum Materials Inc,information_technology,0.0168961,0.0708402,0.0869565,-0.00595127,0.290128,0.667707,1,1,1
220,2017-04-27,33.01,32.12,32.51,32.7,488400.0,32.4648,VSM,Versum Materials Inc,information_technology,0.00615387,0.0517852,0.0925493,-0.0862488,-0.132196,0.351037,1,1,1
221,2017-04-28,32.79,31.94,32.62,32.02,855400.0,31.7897,VSM,Versum Materials Inc,information_technology,-0.0207951,0.029251,0.0676893,0.751433,0.470265,1.95373,0,1,1
222,2017-04-29,32.28,31.6,32.01,31.61,911900.0,31.3826,VSM,Versum Materials Inc,information_technology,-0.0128045,0.00508744,0.0370735,0.066051,1.0242,2.49253,0,1,1
223,2017-04-30,32.28,31.6,32.01,31.61,911900.0,31.3826,VSM,Versum Materials Inc,information_technology,0.0,0.00508744,0.0330065,0.0,1.0242,1.62947,1,1,1
224,2017-05-01,32.28,31.6,32.01,31.61,911900.0,31.3826,VSM,Versum Materials Inc,information_technology,0.0,0.00508744,0.0453043,0.0,1.0242,0.904951,1,1,1
225,2017-05-02,31.67,30.73,31.36,30.81,921100.0,30.5884,VSM,Versum Materials Inc,information_technology,-0.0253085,-0.0359825,0.0188492,0.0100888,0.713037,0.92417,0,1,0
226,2017-05-03,31.1,30.15,30.88,30.51,611400.0,30.2906,VSM,Versum Materials Inc,information_technology,-0.00973707,-0.0612308,0.00892859,-0.336228,0.143873,0.277209,0,1,0
227,2017-05-04,30.75,30.2,30.61,30.74,419200.0,30.5189,VSM,Versum Materials Inc,information_technology,0.0075385,-0.0599389,0.0226214,-0.31436,-0.141687,-0.259102,1,1,0
228,2017-05-05,31.0,30.31,30.8,30.41,703100.0,30.1913,VSM,Versum Materials Inc,information_technology,-0.0107352,-0.0502811,0.0123169,0.677242,-0.178045,1.16272,0,1,0
229,2017-05-06,30.79,30.37,30.5,30.5,599400.0,30.2806,VSM,Versum Materials Inc,information_technology,0.00295956,-0.0351155,-0.00683813,-0.14749,-0.342691,0.565422,1,0,0
230,2017-05-07,30.79,30.37,30.5,30.5,599400.0,30.2806,VSM,Versum Materials Inc,information_technology,0.0,-0.0351155,-0.00228982,0.0,-0.342691,1.06761,1,0,0
231,2017-05-08,30.79,30.37,30.5,30.5,599400.0,30.2806,VSM,Versum Materials Inc,information_technology,0.0,-0.0351155,0.00328949,0.0,-0.342691,1.73574,1,1,0
232,2017-05-09,30.979,30.38,30.75,30.5,551700.0,30.2806,VSM,Versum Materials Inc,information_technology,0.0,-0.0100617,0.00328949,-0.0795796,-0.401042,1.51803,1,1,0
233,2017-05-10,31.07,30.312,30.59,31.0,769600.0,30.777,VSM,Versum Materials Inc,information_technology,0.0163934,0.0160603,0.0197369,0.394961,0.25875,2.51255,1,1,1
234,2017-05-11,31.22,30.41,31.04,30.87,381100.0,30.648,VSM,Versum Materials Inc,information_technology,-0.00419352,0.00422905,0.0178042,-0.504808,-0.0908874,-0.205379,0,1,1
235,2017-05-12,30.82,30.09,30.74,30.25,328900.0,30.0324,VSM,Versum Materials Inc,information_technology,-0.0200843,-0.00526142,0.0147602,-0.136972,-0.532214,-0.386381,0,1,0
236,2017-05-13,30.65,30.15,30.23,30.33,372800.0,30.1118,VSM,Versum Materials Inc,information_technology,0.00264463,-0.00557377,0.049118,0.133475,-0.378045,-0.416771,1,1,0
237,2017-05-14,30.65,30.15,30.23,30.33,372800.0,30.1118,VSM,Versum Materials Inc,information_technology,0.0,-0.00557377,0.0267434,0.0,-0.378045,-0.492236,1,1,0
238,2017-05-15,30.65,30.15,30.23,30.33,372800.0,30.1118,VSM,Versum Materials Inc,information_technology,0.0,-0.00557377,0.0267434,0.0,-0.378045,-0.492236,1,1,0
239,2017-05-16,30.58,30.04,30.42,30.52,295700.0,30.3005,VSM,Versum Materials Inc,information_technology,0.00626444,0.000655753,0.0331753,-0.206813,-0.46402,-0.597249,1,1,1
240,2017-05-17,30.52,29.86,30.52,29.99,676400.0,29.7743,VSM,Versum Materials Inc,information_technology,-0.0173657,-0.0325807,0.0152335,1.28745,-0.121102,-0.0787251,0,1,0
241,2017-05-18,30.16,29.771,29.93,30.05,332000.0,29.8339,VSM,Versum Materials Inc,information_technology,0.00200065,-0.0265631,0.0087277,-0.509166,-0.128838,0.0496364,1,1,0
242,2017-05-19,30.52,30.035,30.13,30.35,439900.0,30.1317,VSM,Versum Materials Inc,information_technology,0.0099834,0.0033058,0.0,0.325,0.337489,0.061791,1,1,1
[...]
652,2018-07-03,37.46,36.7,37.37,36.72,90300.0,36.6609,VSM,Versum Materials Inc,information_technology,-0.0139635,-0.0259947,-0.101322,-0.604814,-0.779649,-0.659374,0,0,0
653,2018-07-04,37.45,36.79,36.86,37.36,257100.0,37.2998,VSM,Versum Materials Inc,information_technology,0.0174292,0.0149416,-0.0856583,1.84718,-0.385075,-0.0301773,1,0,1
654,2018-07-05,37.45,36.79,36.86,37.36,257100.0,37.2998,VSM,Versum Materials Inc,information_technology,0.0,0.00809496,-0.0898903,0.0,-0.320201,0.20028,1,0,1
655,2018-07-06,37.65,36.85,37.3,37.52,244600.0,37.4596,VSM,Versum Materials Inc,information_technology,0.00428265,0.00995959,-0.0884354,-0.0486192,-0.401371,-0.325427,1,0,1
656,2018-07-07,37.6,36.96,37.6,37.06,643800.0,37.0003,VSM,Versum Materials Inc,information_technology,-0.0122601,-0.00483352,-0.0932224,1.63205,1.81751,1.06677,0,0,0
657,2018-07-08,37.6,36.96,37.6,37.06,643800.0,37.0003,VSM,Versum Materials Inc,information_technology,0.0,-0.00483352,-0.0907752,0.0,1.81751,0.572545,1,0,0
658,2018-07-09,37.6,36.96,37.6,37.06,643800.0,37.0003,VSM,Versum Materials Inc,information_technology,0.0,-0.00483352,-0.0874169,0.0,1.81751,0.842587,1,0,0
659,2018-07-10,37.61,36.82,37.07,37.19,603000.0,37.1301,VSM,Versum Materials Inc,information_technology,0.00350775,0.0127995,-0.0842158,-0.0633737,5.67774,0.725816,1,0,1
660,2018-07-11,37.35,36.64,36.99,36.82,520700.0,36.7607,VSM,Versum Materials Inc,information_technology,-0.00994888,-0.014454,-0.0933268,-0.136484,1.02528,0.490269,0,0,0
661,2018-07-12,37.3,36.77,37.02,37.28,282400.0,37.22,VSM,Versum Materials Inc,information_technology,0.0124932,-0.00214138,-0.0767707,-0.457653,0.0984053,-0.257233,1,0,0
662,2018-07-13,37.69,37.21,37.3,37.29,214800.0,37.23,VSM,Versum Materials Inc,information_technology,0.000268298,-0.00613005,-0.0700748,-0.239377,-0.121832,-0.578162,1,0,0
663,2018-07-14,37.32,36.89,37.2,36.95,289800.0,36.8905,VSM,Versum Materials Inc,information_technology,-0.00911773,-0.00296818,-0.0787833,0.349162,-0.54986,-0.231911,0,0,0
664,2018-07-15,37.32,36.89,37.2,36.95,289800.0,36.8905,VSM,Versum Materials Inc,information_technology,0.0,-0.00296818,-0.0741669,0.0,-0.54986,-0.667965,1,0,0
665,2018-07-16,37.32,36.89,37.2,36.95,289800.0,36.8905,VSM,Versum Materials Inc,information_technology,0.0,-0.00296818,-0.0645569,0.0,-0.54986,-0.305369,1,0,0
666,2018-07-17,37.95,36.73,36.73,37.9,262600.0,37.839,VSM,Versum Materials Inc,information_technology,0.0257104,0.0190912,-0.0405063,-0.0938578,-0.564511,-0.370566,1,0,1
667,2018-07-18,38.47,37.86,38.01,38.43,331200.0,38.3681,VSM,Versum Materials Inc,information_technology,0.0139841,0.0437263,-0.0270886,0.261234,-0.363933,-0.206136,1,0,1
668,2018-07-19,38.585,38.13,38.32,38.42,286600.0,38.3581,VSM,Versum Materials Inc,information_technology,-0.000260269,0.0305794,-0.0273418,-0.134662,0.0148725,-0.482017,0,0,1
669,2018-07-20,38.71,37.9,38.42,38.58,693900.0,38.5179,VSM,Versum Materials Inc,information_technology,0.00416459,0.0345937,-0.0059263,1.42114,2.23045,0.885086,1,0,1
670,2018-07-21,38.37,37.58,38.35,38.05,383100.0,37.9887,VSM,Versum Materials Inc,information_technology,-0.0137378,0.0297699,-0.0256082,-0.447903,0.321946,0.164438,0,0,1
671,2018-07-22,38.37,37.58,38.35,38.05,383100.0,37.9887,VSM,Versum Materials Inc,information_technology,0.0,0.0297699,-0.024359,0.0,0.321946,-0.715801,1,0,1
672,2018-07-23,38.37,37.58,38.35,38.05,383100.0,37.9887,VSM,Versum Materials Inc,information_technology,0.0,0.0297699,0.00714665,0.0,0.321946,-0.0500868,1,1,1
673,2018-07-24,38.45,37.59,38.34,37.79,296100.0,37.7291,VSM,Versum Materials Inc,information_technology,-0.00683307,-0.00290239,0.000264747,-0.227095,0.12757,-0.265807,0,1,0
674,2018-07-25,38.07,37.32,37.87,37.84,442000.0,37.7791,VSM,Versum Materials Inc,information_technology,0.00132308,-0.0153526,0.00158818,0.492739,0.334541,0.0959583,1,1,0
675,2018-07-26,38.63,37.97,38.0,38.55,364000.0,38.4879,VSM,Versum Materials Inc,information_technology,0.0187632,0.00338368,0.0225464,-0.176471,0.270063,-0.111762,1,1,1
676,2018-07-27,38.91,37.99,38.54,38.31,255500.0,38.2483,VSM,Versum Materials Inc,information_technology,-0.00622563,-0.00699846,0.0407498,-0.298077,-0.631791,-0.388902,0,1,0
677,2018-07-28,38.47,37.45,38.27,37.93,349000.0,37.8689,VSM,Versum Materials Inc,information_technology,-0.00991911,-0.00315372,0.0234754,0.365949,-0.0890107,-0.0772078,0,1,0
678,2018-07-29,38.47,37.45,38.27,37.93,349000.0,37.8689,VSM,Versum Materials Inc,information_technology,0.0,-0.00315372,0.0209959,0.0,-0.0890107,-0.145864,1,1,0
679,2018-07-30,38.47,37.45,38.27,37.93,349000.0,37.8689,VSM,Versum Materials Inc,information_technology,0.0,-0.00315372,0.0185284,0.0,-0.0890107,0.527352,1,1,0
680,2018-07-31,38.77,38.03,38.23,38.55,240000.0,38.4879,VSM,Versum Materials Inc,information_technology,0.0163459,0.0201111,0.0351772,-0.312321,-0.189463,0.0503282,1,1,1
681,2018-08-01,38.665,37.88,38.55,38.01,344500.0,37.9488,VSM,Versum Materials Inc,information_technology,-0.0140078,0.00449255,0.0206766,0.435417,-0.220588,0.507659,0,1,1
682,2018-08-02,39.15,37.7,37.76,39.06,254900.0,38.9971,VSM,Versum Materials Inc,information_technology,0.0276244,0.0132296,0.0637255,-0.260087,-0.299725,1.82281,1,1,1
683,2018-08-03,39.51,38.84,39.13,39.2,276500.0,39.1369,VSM,Versum Materials Inc,information_technology,0.00358421,0.0232315,0.0492505,0.0847391,0.0821918,0.075457,1,1,1
684,2018-08-04,39.115,38.61,39.06,38.91,446300.0,38.8473,VSM,Versum Materials Inc,information_technology,-0.00739798,0.0258371,0.0414882,0.614105,0.278797,0.7359,0,1,1
685,2018-08-05,39.115,38.61,39.06,38.91,446300.0,38.8473,VSM,Versum Materials Inc,information_technology,0.0,0.0258371,0.0370469,0.0,0.278797,0.824612,1,1,1
686,2018-08-06,39.115,38.61,39.06,38.91,446300.0,38.8473,VSM,Versum Materials Inc,information_technology,0.0,0.0258371,0.049919,0.0,0.278797,-0.306772,1,1,1
687,2018-08-07,39.093,36.63,38.35,37.1,1266100.0,37.0403,VSM,Versum Materials Inc,information_technology,-0.0465176,-0.0376135,0.00107925,1.83688,4.27542,0.966605,0,1,0
688,2018-08-08,38.22,37.01,37.01,38.11,491400.0,38.0486,VSM,Versum Materials Inc,information_technology,0.0272238,0.00263095,0.0283324,-0.611879,0.426415,-0.236719,1,1,1
689,2018-08-09,38.185,37.78,38.06,37.89,368500.0,37.829,VSM,Versum Materials Inc,information_technology,-0.00577279,-0.029954,0.0188223,-0.250102,0.445665,-0.388889,0,1,0
690,2018-08-10,37.79,37.04,37.45,37.26,397900.0,37.2,VSM,Versum Materials Inc,information_technology,-0.0166271,-0.0494899,0.01195,0.0797829,0.43906,-0.235836,0,1,0
691,2018-08-11,37.82,36.75,37.21,36.79,625500.0,36.79,VSM,Versum Materials Inc,information_technology,-0.012614,-0.0544847,-0.0131437,0.572003,0.401524,1.21494,0,0,0
692,2018-08-12,37.82,36.75,37.21,36.79,625500.0,36.79,VSM,Versum Materials Inc,information_technology,0.0,-0.0544847,-0.0134084,0.0,0.401524,1.91201,1,0,0
693,2018-08-13,37.82,36.75,37.21,36.79,625500.0,36.79,VSM,Versum Materials Inc,information_technology,0.0,-0.0544847,-0.00433017,0.0,0.401524,1.15839,1,0,0
694,2018-08-14,37.26,36.78,36.96,36.91,432500.0,36.91,VSM,Versum Materials Inc,information_technology,0.00326173,-0.00512126,-0.00108257,-0.308553,-0.6584,0.492409,1,0,0
695,2018-08-15,36.91,36.07,36.91,36.57,378000.0,36.57,VSM,Versum Materials Inc,information_technology,-0.0092116,-0.0404094,-0.0102842,-0.126012,-0.230769,0.304348,0,0,0
696,2018-08-16,37.46,36.5,36.76,37.32,510400.0,37.32,VSM,Versum Materials Inc,information_technology,0.0205086,-0.0150435,-0.0153035,0.350265,0.385075,0.943641,1,0,0
697,2018-08-17,39.12,37.14,37.31,37.52,505700.0,37.52,VSM,Versum Materials Inc,information_technology,0.00535908,0.00697805,-0.0236794,-0.00920846,0.270922,0.526872,1,0,1
698,2018-08-18,37.73,37.36,37.56,37.65,308400.0,37.65,VSM,Versum Materials Inc,information_technology,0.00346485,0.0233759,-0.0200416,-0.390152,-0.506954,0.0760642,1,0,1
699,2018-08-19,37.73,37.36,37.56,37.65,308400.0,37.65,VSM,Versum Materials Inc,information_technology,0.0,0.0233759,-0.0241058,0.0,-0.506954,-0.555556,1,0,1
700,2018-08-20,37.73,37.36,37.56,37.65,308400.0,37.65,VSM,Versum Materials Inc,information_technology,0.0,0.0233759,-0.0105124,0.0,-0.506954,-0.194988,1,0,1
701,2018-08-21,38.18,37.65,37.74,37.83,405600.0,37.83,VSM,Versum Materials Inc,information_technology,0.00478088,0.0249255,-0.0057818,0.315175,-0.0621965,0.0587314,1,0,1
702,2018-08-22,38.56,37.71,37.72,38.05,616800.0,38.05,VSM,Versum Materials Inc,information_technology,0.00581542,0.0404703,0.0,0.52071,0.631746,0.610023,1,1,1
703,2018-08-23,38.72,38.0,38.03,38.51,297400.0,38.51,VSM,Versum Materials Inc,information_technology,0.0120893,0.0318864,0.0190526,-0.517834,-0.41732,0.00439041,1,1,1
704,2018-08-24,38.87,38.383,38.63,38.62,238700.0,38.62,VSM,Versum Materials Inc,information_technology,0.00285642,0.0293177,0.0206131,-0.197377,-0.527981,-0.459955,1,1,1
705,2018-08-25,39.49,38.88,38.88,39.34,319200.0,39.34,VSM,Versum Materials Inc,information_technology,0.0186432,0.0448871,0.0204929,0.337243,0.0350195,-0.123077,1,1,1
706,2018-08-26,39.49,38.88,38.88,39.34,319200.0,39.34,VSM,Versum Materials Inc,information_technology,0.0,0.0448871,0.0268859,0.0,0.0350195,0.249315,1,1,1
707,2018-08-27,39.49,38.88,38.88,39.34,319200.0,39.34,VSM,Versum Materials Inc,information_technology,0.0,0.0448871,0.0371737,0.0,0.0350195,-0.0853868,1,1,1
708,2018-08-28,40.21,39.475,39.5,39.74,327400.0,39.74,VSM,Versum Materials Inc,information_technology,0.0101678,0.050489,0.0477195,0.0256892,-0.192801,-0.0618911,1,1,1
709,2018-08-29,39.95,39.42,39.95,39.75,195200.0,39.75,VSM,Versum Materials Inc,information_technology,0.000251593,0.0446781,0.0479831,-0.403787,-0.683528,-0.440688,1,1,1
710,2018-08-30,39.96,39.59,39.64,39.66,236700.0,39.66,VSM,Versum Materials Inc,information_technology,-0.00226415,0.0298624,0.0287938,0.212602,-0.204102,-0.01375,0,1,1
711,2018-08-31,40.09,39.43,39.7,39.79,346400.0,39.79,VSM,Versum Materials Inc,information_technology,0.00327789,0.0302952,0.0468299,0.463456,0.451194,0.00551524,1,1,1
712,2018-09-01,39.95,39.12,39.67,39.36,196400.0,39.36,VSM,Versum Materials Inc,information_technology,-0.0108067,0.0005084,0.00768047,-0.433025,-0.384712,-0.229502,0,1,1
713,2018-09-02,39.95,39.12,39.67,39.36,196400.0,39.36,VSM,Versum Materials Inc,information_technology,0.0,0.0005084,0.00408163,0.0,-0.384712,-0.289693,1,1,1
714,2018-09-03,39.95,39.12,39.67,39.36,196400.0,39.36,VSM,Versum Materials Inc,information_technology,0.0,0.0005084,0.0115652,0.0,-0.384712,-0.559937,1,1,1
715,2018-09-04,39.95,39.12,39.67,39.36,196400.0,39.36,VSM,Versum Materials Inc,information_technology,0.0,-0.00956218,0.0115652,0.0,-0.400122,-0.559937,1,1,0
716,2018-09-05,39.16,38.22,39.15,39.02,645100.0,39.02,VSM,Versum Materials Inc,information_technology,-0.00863822,-0.0183648,0.00282705,2.28462,2.30482,0.44544,0,1,0
717,2018-09-06,39.06,37.48,38.97,37.51,395400.0,37.51,VSM,Versum Materials Inc,information_technology,-0.0386982,-0.0542108,0.0110512,-0.387072,0.670469,-0.687702,0,1,0
718,2018-09-07,38.31,37.52,37.73,37.71,334500.0,37.71,VSM,Versum Materials Inc,information_technology,0.00533193,-0.0522745,-0.010496,-0.154021,-0.0343533,-0.319292,1,0,0
719,2018-09-08,38.315,37.78,37.99,37.99,241300.0,37.99,VSM,Versum Materials Inc,information_technology,0.00742516,-0.0348069,0.00263928,-0.278625,0.228615,-0.345183,1,1,0
720,2018-09-09,38.315,37.78,37.99,37.99,241300.0,37.99,VSM,Versum Materials Inc,information_technology,0.0,-0.0348069,0.0195921,0.0,0.228615,-0.393566,1,1,0
721,2018-09-10,38.315,37.78,37.99,37.99,241300.0,37.99,VSM,Versum Materials Inc,information_technology,0.0,-0.0348069,0.0326176,0.0,0.228615,-0.614229,1,1,0
722,2018-09-11,37.82,37.37,37.71,37.68,259400.0,37.68,VSM,Versum Materials Inc,information_technology,-0.00816008,-0.0426829,0.0241913,0.0750104,0.320774,-0.585292,0,1,0
723,2018-09-12,37.12,36.05,37.07,36.71,692700.0,36.71,VSM,Versum Materials Inc,information_technology,-0.0257431,-0.0592004,-0.00217455,1.67039,0.073787,0.107434,0,0,0
724,2018-09-13,37.45,36.54,37.04,36.72,393700.0,36.72,VSM,Versum Materials Inc,information_technology,0.000272464,-0.021061,-0.00514762,-0.431644,-0.00429944,-0.089711,1,0,0
725,2018-09-14,36.94,36.41,36.75,36.54,541200.0,36.54,VSM,Versum Materials Inc,information_technology,-0.00490197,-0.0310262,-0.000820311,0.374651,0.617937,0.431746,0,0,0
726,2018-09-15,36.79,35.935,36.51,35.97,500600.0,35.97,VSM,Versum Materials Inc,information_technology,-0.0155993,-0.0531719,-0.0361736,-0.0750185,1.0746,-0.0192006,0,0,0
727,2018-09-16,36.79,35.935,36.51,35.97,500600.0,35.97,VSM,Versum Materials Inc,information_technology,0.0,-0.0531719,-0.0413113,0.0,1.0746,-0.010085,1,0,0
728,2018-09-17,36.79,35.935,36.51,35.97,500600.0,35.97,VSM,Versum Materials Inc,information_technology,0.0,-0.0531719,-0.0446215,0.0,1.0746,0.623217,1,0,0
729,2018-09-18,36.32,35.59,36.22,35.62,477300.0,35.62,VSM,Versum Materials Inc,information_technology,-0.00973039,-0.0546709,-0.0539177,-0.0465441,0.840015,0.547665,0,0,0
730,2018-09-19,35.87,35.25,35.74,35.77,671700.0,35.77,VSM,Versum Materials Inc,information_technology,0.00421116,-0.0256061,-0.0499336,0.407291,-0.0303162,1.17802,1,0,0
731,2018-09-20,36.87,35.98,36.13,36.77,488900.0,36.77,VSM,Versum Materials Inc,information_technology,0.0279564,0.00136163,-0.0280201,-0.272145,0.241808,0.205375,1,0,1
732,2018-09-21,37.05,36.59,36.82,36.66,905000.0,36.66,VSM,Versum Materials Inc,information_technology,-0.00299159,0.00328404,-0.0365309,0.851094,0.67221,0.46725,0,0,1
733,2018-09-22,36.86,36.01,36.52,36.84,456600.0,36.84,VSM,Versum Materials Inc,information_technology,0.00490999,0.0241868,-0.0433653,-0.49547,-0.0878945,0.535306,1,0,1
734,2018-09-23,36.86,36.01,36.52,36.84,456600.0,36.84,VSM,Versum Materials Inc,information_technology,0.0,0.0241868,-0.0460901,0.0,-0.0878945,0.912861,1,0,1
735,2018-09-24,36.86,36.01,36.52,36.84,456600.0,36.84,VSM,Versum Materials Inc,information_technology,0.0,0.0241868,-0.0635486,0.0,-0.0878945,0.430451,1,0,1
736,2018-09-25,36.905,36.37,36.78,36.39,345200.0,36.39,VSM,Versum Materials Inc,information_technology,-0.012215,0.0216171,-0.0749873,-0.243977,-0.276765,0.0814536,0,0,1
737,2018-09-26,36.319,35.78,36.26,35.79,338300.0,35.79,VSM,Versum Materials Inc,information_technology,-0.016488,0.000559141,-0.0902389,-0.0199884,-0.496353,0.0598371,0,0,1
738,2018-09-27,36.1,35.6,35.84,36.04,465500.0,36.04,VSM,Versum Materials Inc,information_technology,0.00698519,-0.0198531,-0.0931052,0.375998,-0.0478625,0.421808,1,0,0
739,2018-09-28,36.61,35.925,36.0,36.01,502400.0,36.01,VSM,Versum Materials Inc,information_technology,-0.00083248,-0.0177305,-0.0940881,0.0792696,-0.444862,1.57377,0,0,0
740,2018-09-29,36.35,35.89,36.27,35.97,282700.0,35.97,VSM,Versum Materials Inc,information_technology,-0.00111072,-0.0236156,-0.0930408,-0.437301,-0.380859,0.194339,0,0,0
741,2018-09-30,36.35,35.89,36.27,35.97,282700.0,35.97,VSM,Versum Materials Inc,information_technology,0.0,-0.0236156,-0.096004,0.0,-0.380859,-0.183891,1,0,0
742,2018-10-01,36.35,35.89,36.27,35.97,282700.0,35.97,VSM,Versum Materials Inc,information_technology,0.0,-0.0236156,-0.086128,0.0,-0.380859,0.439409,1,0,0
743,2018-10-02,36.21,35.69,35.88,35.97,329900.0,35.97,VSM,Versum Materials Inc,information_technology,0.0,-0.0115416,-0.086128,0.166961,-0.0443221,0.679735,1,0,0
744,2018-10-03,36.04,35.67,35.98,35.74,582700.0,35.74,VSM,Versum Materials Inc,information_technology,-0.0063942,-0.00139702,-0.0919715,0.766293,0.722436,1.9669,0,0,0
745,2018-10-04,35.67,34.64,35.67,34.93,363300.0,34.93,VSM,Versum Materials Inc,information_technology,-0.0226637,-0.0307991,-0.112551,-0.376523,-0.219549,0.849796,0,0,0
746,2018-10-05,34.9,33.92,34.9,34.27,439300.0,34.27,VSM,Versum Materials Inc,information_technology,-0.0188949,-0.0483199,-0.121732,0.209194,-0.125597,-0.31902,0,0,0
747,2018-10-06,34.46,33.5,34.11,34.0,353400.0,34.0,VSM,Versum Materials Inc,information_technology,-0.00787862,-0.0547679,-0.093575,-0.195538,0.250088,-0.106222,0,0,0
748,2018-10-07,34.46,33.5,34.11,34.0,353400.0,34.0,VSM,Versum Materials Inc,information_technology,0.0,-0.0547679,-0.0983824,0.0,0.250088,0.0565022,1,0,0
749,2018-10-08,34.46,33.5,34.11,34.0,353400.0,34.0,VSM,Versum Materials Inc,information_technology,0.0,-0.0547679,-0.105028,0.0,0.250088,0.464567,1,0,0
750,2018-10-09,33.85,33.27,33.85,33.32,515400.0,33.32,VSM,Versum Materials Inc,information_technology,-0.02,-0.0736725,-0.122927,0.458404,0.562292,1.13593,0,0,0
751,2018-10-10,33.49,32.6,33.0,32.65,669800.0,32.65,VSM,Versum Materials Inc,information_technology,-0.020108,-0.0864578,-0.140563,0.299573,0.149477,1.7758,0,0,0
752,2018-10-11,33.07,31.58,32.66,31.62,612200.0,31.62,VSM,Versum Materials Inc,information_technology,-0.0315467,-0.0947609,-0.160828,-0.0859958,0.685109,1.36006,0,0,0
753,2018-10-12,32.26,31.01,32.23,31.39,859400.0,31.39,VSM,Versum Materials Inc,information_technology,-0.00727392,-0.0840385,-0.14492,0.40379,0.956294,0.240653,0,0,0
754,2018-10-13,31.88,31.315,31.33,31.59,486400.0,31.59,VSM,Versum Materials Inc,information_technology,0.00637148,-0.0708823,-0.139706,-0.434024,0.376344,0.235458,1,0,0
755,2018-10-14,31.88,31.315,31.33,31.59,486400.0,31.59,VSM,Versum Materials Inc,information_technology,0.0,-0.0708823,-0.135468,0.0,0.376344,-0.101256,1,0,0
756,2018-10-15,31.88,31.315,31.33,31.59,486400.0,31.59,VSM,Versum Materials Inc,information_technology,0.0,-0.0708823,-0.121768,0.0,0.376344,-0.028366,1,0,0
757,2018-10-16,32.7,31.76,31.97,32.59,255000.0,32.59,VSM,Versum Materials Inc,information_technology,0.0316556,-0.0219087,-0.0939672,-0.47574,-0.505239,-0.490611,1,0,0
758,2018-10-17,33.26,32.66,32.87,32.89,534300.0,32.89,VSM,Versum Materials Inc,information_technology,0.00920525,0.00735062,-0.085627,1.09529,-0.202299,0.0673192,1,0,1
759,2018-10-18,32.71,31.62,32.55,31.75,363300.0,31.75,VSM,Versum Materials Inc,information_technology,-0.034661,0.0041113,-0.108647,-0.320045,-0.406566,-0.238843,0,0,1
760,2018-10-19,31.91,31.15,31.89,31.35,435600.0,31.35,VSM,Versum Materials Inc,information_technology,-0.0125984,-0.00127426,-0.123567,0.199009,-0.493135,-0.351496,0,0,0
761,2018-10-20,31.61,30.92,31.57,30.99,693100.0,30.99,VSM,Versum Materials Inc,information_technology,-0.0114833,-0.0189934,-0.157193,0.591139,0.424959,0.417672,0,0,0
762,2018-10-21,31.61,30.92,31.57,30.99,693100.0,30.99,VSM,Versum Materials Inc,information_technology,0.0,-0.0189934,-0.154664,0.0,0.424959,-0.234144,1,0,0
763,2018-10-22,31.61,30.92,31.57,30.99,693100.0,30.99,VSM,Versum Materials Inc,information_technology,0.0,-0.0189934,-0.158795,0.0,0.424959,0.517959,1,0,0
764,2018-10-23,31.3,30.01,30.18,30.97,385800.0,30.97,VSM,Versum Materials Inc,information_technology,-0.000645384,-0.0497085,-0.159338,-0.44337,0.512941,-0.155059,0,0,0
765,2018-10-24,30.93,28.96,30.76,29.01,912800.0,29.01,VSM,Versum Materials Inc,information_technology,-0.063287,-0.117969,-0.212541,1.36599,0.708404,0.999124,0,0,0
766,2018-10-25,30.65,29.341,29.36,30.61,689600.0,30.61,VSM,Versum Materials Inc,information_technology,0.0551534,-0.0359055,-0.158835,-0.244522,0.898156,0.997683,1,0,0
767,2018-10-26,31.3,29.5,30.03,30.76,767700.0,30.76,VSM,Versum Materials Inc,information_technology,0.00490035,-0.0188198,-0.140542,0.113254,0.762397,1.26929,1,0,0
768,2018-10-27,31.52,29.98,31.33,30.44,476600.0,30.44,VSM,Versum Materials Inc,information_technology,-0.0104031,-0.0177476,-0.155383,-0.379185,-0.312365,0.0238453,0,0,0
769,2018-10-28,31.52,29.98,31.33,30.44,476600.0,30.44,VSM,Versum Materials Inc,information_technology,0.0,-0.0177476,-0.154679,0.0,-0.312365,-0.0513535,1,0,0
770,2018-10-29,31.52,29.98,31.33,30.44,476600.0,30.44,VSM,Versum Materials Inc,information_technology,0.0,-0.0177476,-0.153739,0.0,-0.312365,0.685886,1,0,0
771,2018-10-30,31.01,30.34,30.47,30.88,378300.0,30.88,VSM,Versum Materials Inc,information_technology,0.0144546,-0.00290604,-0.141507,-0.206253,-0.0194401,0.338168,1,0,0
772,2018-10-31,31.64,30.79,31.38,31.56,497500.0,31.56,VSM,Versum Materials Inc,information_technology,0.0220207,0.0879007,-0.122602,0.315094,-0.454974,0.759816,1,0,1